"trial_type","trial_index","time_elapsed","internal_node_id","subject","success","rt","stimulus","key_press","button_pressed","choices","target","block","task","accuracy","video","condition"
"pavlovia","0","4","0.0-0.0","","","","","","","","","","","","",""
"fullscreen","1","2614","0.0-1.0","","true","","","","","","","","","","",""
"audio-keyboard-response","2","5915","0.0-2.0","","","null","audio/instructions_practice.mp3","null","","","","","","","",""
"html-button-response","3","6932","0.0-3.0","","","910.8499999856576","","","0","","","","","","",""
"audio-keyboard-response","4","10304","0.0-4.0","","","null","audio/instructions_waitpicture.mp3","null","","","","","","","",""
"html-button-response","5","11357","0.0-5.0-0.0","","","948.6700000124983","","","0","","","","","","",""
"audio-button-response","6","13463","0.0-5.0-1.0-0.0","","","null","audio/ballrecording1.mp3","","null","","","","","","",""
"audio-button-response","7","14045","0.0-5.0-1.0-1.0","","","479.92000001249835","audio/ballrecording2.mp3","","3","pol_images/parrot.jpg,pol_images/rose.jpg,pol_images/pumpkin.jpg,pol_images/ball.jpg","pol_images/ball.jpg","intro","polysemy","true","",""
"audio-keyboard-response","8","17153","0.0-5.0-2.0","","","null","audio/answer-correct.mp3","null","","","","","","","",""
"html-button-response","9","18759","0.0-5.0-0.1","","","1504.3999999761581","","","0","","","","","","",""
"audio-button-response","10","20866","0.0-5.0-1.1-0.1","","","null","audio/mouthrecording1.mp3","","null","","","","","","",""
"audio-button-response","11","21899","0.0-5.0-1.1-1.1","","","932.0999999763444","audio/mouthrecording2.mp3","","2","pol_images/eye.jpg,pol_images/ear.jpg,pol_images/mouth.jpg,pol_images/nose.jpg","pol_images/mouth.jpg","intro","polysemy","true","",""
"audio-keyboard-response","12","25003","0.0-5.0-2.1","","","null","audio/answer-correct.mp3","null","","","","","","","",""
"html-button-response","13","26434","0.0-5.0-0.2","","","1326.3100000331178","","","0","","","","","","",""
"audio-button-response","14","28540","0.0-5.0-1.2-0.2","","","null","audio/duckrecording1.mp3","","null","","","","","","",""
"audio-button-response","15","29130","0.0-5.0-1.2-1.2","","","487.9850000143051","audio/duckrecording2.mp3","","0","pol_images/duck.jpg,pol_images/horse.jpg,pol_images/sheep.jpg,pol_images/calf.jpg","pol_images/duck.jpg","intro","polysemy","true","",""
"audio-keyboard-response","16","32235","0.0-5.0-2.2","","","null","audio/answer-correct.mp3","null","","","","","","","",""
"html-button-response","17","32824","0.0-5.0-0.3","","","486.9450000114739","","","0","","","","","","",""
"audio-button-response","18","34928","0.0-5.0-1.3-0.3","","","null","audio/bananarecording1.mp3","","null","","","","","","",""
"audio-button-response","19","35184","0.0-5.0-1.3-1.3","","","153.27999996952713","audio/bananarecording2.mp3","","3","pol_images/bib.jpg,pol_images/wheel.jpg,pol_images/lamb.jpg,pol_images/banana.jpg","pol_images/banana.jpg","intro","polysemy","true","",""
"audio-keyboard-response","20","38288","0.0-5.0-2.3","","","null","audio/answer-correct.mp3","null","","","","","","","",""
"html-button-response","21","38864","0.0-5.0-0.4","","","474.3499999749474","","","0","","","","","","",""
"audio-button-response","22","40970","0.0-5.0-1.4-0.4","","","null","audio/busrecording1.mp3","","null","","","","","","",""
"audio-button-response","23","41300","0.0-5.0-1.4-1.4","","","227.54499997245148","audio/busrecording2.mp3","","3","pol_images/broom.jpg,pol_images/kite.jpg,pol_images/elephant.jpg,pol_images/bus.jpg","pol_images/bus.jpg","intro","polysemy","true","",""
"audio-keyboard-response","24","44406","0.0-5.0-2.4","","","null","audio/answer-correct.mp3","null","","","","","","","",""
"html-button-response","25","45222","0.0-5.0-0.5","","","714.9099999805912","","","0","","","","","","",""
"audio-button-response","26","47326","0.0-5.0-1.5-0.5","","","null","audio/shoerecording1.mp3","","null","","","","","","",""
"audio-button-response","27","47901","0.0-5.0-1.5-1.5","","","473.3600000035949","audio/shoerecording2.mp3","","3","pol_images/teddybear.jpg,pol_images/stool.jpg,pol_images/sandwich.jpg,pol_images/shoe.jpg","pol_images/shoe.jpg","intro","polysemy","true","",""
"audio-keyboard-response","28","51008","0.0-5.0-2.5","","","null","audio/answer-correct.mp3","null","","","","","","","",""
"html-button-response","29","52158","0.0-5.0-0.6","","","1048.0149999493733","","","0","","","","","","",""
"audio-button-response","30","54264","0.0-5.0-1.6-0.6","","","null","audio/flowerrecording1.mp3","","null","","","","","","",""
"audio-button-response","31","55919","0.0-5.0-1.6-1.6","","","1550.21499999566","audio/flowerrecording2.mp3","","1","pol_images/pizza.jpg,pol_images/flower.jpg,pol_images/starfish.jpg,pol_images/toy.jpg","pol_images/flower.jpg","intro","polysemy","true","",""
"audio-keyboard-response","32","59027","0.0-5.0-2.6","","","null","audio/answer-correct.mp3","null","","","","","","","",""
"html-button-response","33","60064","0.0-5.0-0.7","","","932.3799999547191","","","0","","","","","","",""
"audio-button-response","34","62172","0.0-5.0-1.7-0.7","","","1919.8399999877438","audio/footrecording1.mp3","","1","","","","","","",""
"audio-button-response","35","63483","0.0-5.0-1.7-1.7","","","1204.7050000401214","audio/footrecording2.mp3","","1","pol_images/neck.jpg,pol_images/foot.jpg,pol_images/hand.jpg,pol_images/shoulder.jpg","pol_images/foot.jpg","intro","polysemy","true","",""
"audio-keyboard-response","36","66590","0.0-5.0-2.7","","","null","audio/answer-correct.mp3","null","","","","","","","",""
"audio-keyboard-response","37","69195","0.0-6.0","","","null","audio/instructions_keepgoing.wav","null","","","","","","","",""
"audio-keyboard-response","38","72475","0.0-7.0","","","null","audio/instructions_waitfull.mp3","null","","","","","","","",""
"html-button-response","39","73341","0.0-8.0-0.0","","","765.0000000139698","","","0","","","","","","",""
"audio-button-response","40","75646","0.0-8.0-1.0","","","2200.124999973923","audio/hornrecording.mp3","","0","pol_images/hornA.jpg,pol_images/distractor1.jpg,pol_images/distractor11.jpg,pol_images/distractor25.jpg","pol_images/hornA.jpg","choose","polysemy","true","",""
"html-button-response","41","76627","0.0-8.0-0.1","","","879.0949999820441","","","0","","","","","","",""
"audio-button-response","42","78859","0.0-8.0-1.1","","","2127.535000036005","audio/balloonrecording.mp3","","1","pol_images/distractor26.jpg,pol_images/balloonA.jpg,pol_images/distractor53.jpg,pol_images/distractor15.jpg","pol_images/balloonA.jpg","choose","polysemy","true","",""
"html-button-response","43","79732","0.0-8.0-0.2","","","771.4549999800511","","","0","","","","","","",""
"audio-button-response","44","81595","0.0-8.0-1.2","","","1758.1999999820255","audio/sheetrecording.mp3","","0","pol_images/sheetB.jpg,pol_images/distractor48.jpg,pol_images/distractor50.jpg,pol_images/distractor37.jpg","pol_images/sheetB.jpg","choose","polysemy","true","",""
"html-button-response","45","82481","0.0-8.0-0.3","","","784.5450000022538","","","0","","","","","","",""
"audio-button-response","46","84104","0.0-8.0-1.3","","","1520.5449999775738","audio/caprecording.mp3","","2","pol_images/distractor47.jpg,pol_images/distractor41.jpg,pol_images/capC.jpg,pol_images/distractor44.jpg","pol_images/capC.jpg","choose","polysemy","true","",""
"html-button-response","47","84842","0.0-8.0-0.4","","","637.7399999764748","","","0","","","","","","",""
"audio-button-response","48","86687","0.0-8.0-1.4","","","1740.7399999792688","audio/caprecording.mp3","","2","pol_images/distractor5.jpg,pol_images/distractor4.jpg,pol_images/capA.jpg,pol_images/distractor20.jpg","pol_images/capA.jpg","choose","polysemy","true","",""
"html-button-response","49","87628","0.0-8.0-0.5","","","835.4050000198185","","","0","","","","","","",""
"audio-button-response","50","89711","0.0-8.0-1.5","","","1974.8299999628216","audio/caprecording.mp3","","2","pol_images/distractor19.jpg,pol_images/distractor32.jpg,pol_images/capB.jpg,pol_images/distractor16.jpg","pol_images/capB.jpg","choose","polysemy","true","",""
"html-button-response","51","90572","0.0-8.0-0.6","","","759.7950000199489","","","0","","","","","","",""
"audio-button-response","52","92908","0.0-8.0-1.6","","","2229.6299999579787","audio/hornrecording.mp3","","1","pol_images/distractor14.jpg,pol_images/hornB.jpg,pol_images/distractor27.jpg,pol_images/distractor28.jpg","pol_images/hornB.jpg","choose","polysemy","true","",""
"html-button-response","53","93638","0.0-8.0-0.7","","","628.9899999974295","","","0","","","","","","",""
"audio-button-response","54","96211","0.0-8.0-1.7","","","2469.534999981988","audio/collarrecording.mp3","","1","pol_images/distractor51.jpg,pol_images/collarB.jpg,pol_images/distractor18.jpg,pol_images/distractor33.jpg","pol_images/collarB.jpg","choose","polysemy","true","",""
"html-button-response","55","97056","0.0-8.0-0.8","","","742.450000019744","","","0","","","","","","",""
"audio-button-response","56","98424","0.0-8.0-1.8","","","1264.5000000484288","audio/collarrecording.mp3","","1","pol_images/distractor7.jpg,pol_images/collarC.jpg,pol_images/distractor23.jpg,pol_images/distractor29.jpg","pol_images/collarC.jpg","choose","polysemy","true","",""
"html-button-response","57","99113","0.0-8.0-0.9","","","586.0250000259839","","","0","","","","","","",""
"audio-button-response","58","100620","0.0-8.0-1.9","","","1405.4650000180118","audio/hornrecording.mp3","","2","pol_images/distractor21.jpg,pol_images/distractor45.jpg,pol_images/hornC.jpg,pol_images/distractor2.jpg","pol_images/hornC.jpg","choose","polysemy","true","",""
"html-button-response","59","101408","0.0-8.0-0.10","","","686.6549999685958","","","0","","","","","","",""
"audio-button-response","60","103947","0.0-8.0-1.10","","","2431.6450000042096","audio/collarrecording.mp3","","3","pol_images/distractor46.jpg,pol_images/distractor54.jpg,pol_images/distractor30.jpg,pol_images/collarA.jpg","pol_images/collarA.jpg","choose","polysemy","true","",""
"html-button-response","61","104791","0.0-8.0-0.11","","","741.9600000139326","","","0","","","","","","",""
"audio-button-response","62","107111","0.0-8.0-1.11","","","2212.69499999471","audio/glassesrecording-whichis.mp3","","3","pol_images/distractor49.jpg,pol_images/distractor10.jpg,pol_images/distractor9.jpg,pol_images/glassesB.jpg","pol_images/glassesB.jpg","choose","polysemy","true","",""
"html-button-response","63","107938","0.0-8.0-0.12","","","723.569999972824","","","0","","","","","","",""
"audio-button-response","64","110448","0.0-8.0-1.12","","","2404.214999987744","audio/sheetrecording.mp3","","0","pol_images/sheetA.jpg,pol_images/distractor22.jpg,pol_images/distractor6.jpg,pol_images/distractor35.jpg","pol_images/sheetA.jpg","choose","polysemy","true","",""
"html-button-response","65","111208","0.0-8.0-0.13","","","655.7800000300631","","","0","","","","","","",""
"audio-button-response","66","112743","0.0-8.0-1.13","","","1428.55499999132","audio/sheetrecording.mp3","","2","pol_images/distractor13.jpg,pol_images/distractor42.jpg,pol_images/sheetC.jpg,pol_images/distractor36.jpg","pol_images/sheetC.jpg","choose","polysemy","true","",""
"html-button-response","67","113749","0.0-8.0-0.14","","","905.2949999459088","","","0","","","","","","",""
"audio-button-response","68","115119","0.0-8.0-1.14","","","1266.1650000372902","audio/balloonrecording.mp3","","3","pol_images/distractor8.jpg,pol_images/distractor52.jpg,pol_images/distractor38.jpg,pol_images/balloonB.jpg","pol_images/balloonB.jpg","choose","polysemy","true","",""
"html-button-response","69","115954","0.0-8.0-0.15","","","731.824999966193","","","0","","","","","","",""
"audio-button-response","70","117594","0.0-8.0-1.15","","","1533.835000009276","audio/glassesrecording-whichis.mp3","","2","pol_images/distractor39.jpg,pol_images/distractor12.jpg,pol_images/glassesC.jpg,pol_images/distractor43.jpg","pol_images/glassesC.jpg","choose","polysemy","true","",""
"html-button-response","71","118618","0.0-8.0-0.16","","","921.6550000128336","","","0","","","","","","",""
"audio-button-response","72","120324","0.0-8.0-1.16","","","1602.1349999937229","audio/glassesrecording-whichis.mp3","","0","pol_images/glassesA.jpg,pol_images/distractor31.jpg,pol_images/distractor17.jpg,pol_images/distractor3.jpg","pol_images/glassesA.jpg","choose","polysemy","true","",""
"html-button-response","73","121241","0.0-8.0-0.17","","","816.2200000369921","","","0","","","","","","",""
"audio-button-response","74","122996","0.0-8.0-1.17","","","1649.3550000013784","audio/balloonrecording.mp3","","3","pol_images/distractor40.jpg,pol_images/distractor24.jpg,pol_images/distractor34.jpg,pol_images/balloonC.jpg","pol_images/balloonC.jpg","choose","polysemy","true","",""
"audio-keyboard-response","75","124437","0.0-9.0","","","null","audio/instructions_keepgoing.wav","null","","","","","","","",""
"html-button-response","76","125405","0.0-10.0-0.0","","","862.5849999953061","","","0","","","","","","",""
"audio-button-response","77","130514","0.0-10.0-1.0","","","null","audio/instructions_checktheseout.mp3","","null","pal_images/amb_bib.jpg,pal_images/random8.jpg,pal_images/iconic_pizza.jpg,pal_images/iconic_car.jpg","","preview","pal","","",""
"html-button-response","78","131259","0.0-10.0-0.1","","","641.3799999863841","","","0","","","","","","",""
"audio-button-response","79","136366","0.0-10.0-1.1","","","null","audio/instructions_wowthesearecool.mp3","","null","pal_images/iconic_tub.jpg,pal_images/iconic_bib.jpg,pal_images/amb_boots.jpg,pal_images/iconic_table.jpg","","preview","pal","","",""
"html-button-response","80","137121","0.0-10.0-0.2","","","651.3100000447594","","","0","","","","","","",""
"audio-button-response","81","142229","0.0-10.0-1.2","","","null","audio/instructions_lookatthese.mp3","","null","pal_images/random4.jpg,pal_images/amb_button.jpg,pal_images/amb_pizza.jpg,pal_images/random7.jpg","","preview","pal","","",""
"html-button-response","82","142987","0.0-10.0-0.3","","","655.4350000224076","","","0","","","","","","",""
"audio-button-response","83","148096","0.0-10.0-1.3","","","null","audio/instructions_checktheseout.mp3","","null","pal_images/random3.jpg,pal_images/iconic_boat.jpg,pal_images/iconic_button.jpg,pal_images/iconic_boots.jpg","","preview","pal","","",""
"html-button-response","84","148808","0.0-11.0-0.0","","","610.3050000383519","","","0","","","","","","",""
"video-keyboard-response","85","152414","0.0-11.0-1.0","","","null","audio/instructions_alsogotogether.mp3","null","","","","teach","pal","","videos/cond1_newamb_button.mp4",""
"html-button-response","86","153148","0.0-11.0-0.1","","","631.9249999942258","","","0","","","","","","",""
"video-keyboard-response","87","156751","0.0-11.0-1.1","","","null","audio/instructions_alsogotogether.mp3","null","","","","teach","pal","","videos/cond1_newamb_bib.mp4",""
"html-button-response","88","157398","0.0-11.0-0.2","","","544.6700000320561","","","0","","","","","","",""
"video-keyboard-response","89","161003","0.0-11.0-1.2","","","null","audio/instructions_alsogotogether.mp3","null","","","","teach","pal","","videos/cond1_newamb_pizza.mp4",""
"html-button-response","90","161681","0.0-11.0-0.3","","","576.1000000056811","","","0","","","","","","",""
"video-keyboard-response","91","165291","0.0-11.0-1.3","","","null","audio/instructions_alsogotogether.mp3","null","","","","teach","pal","","videos/cond1_iconic_car1_MUTE.mp4",""
"html-button-response","92","165893","0.0-11.0-0.4","","","500.6699999794364","","","0","","","","","","",""
"video-keyboard-response","93","169498","0.0-11.0-1.4","","","null","audio/instructions_alsogotogether.mp3","null","","","","teach","pal","","videos/cond1_iconic_boat1_MUTE.mp4",""
"html-button-response","94","170311","0.0-11.0-0.5","","","710.1200000033714","","","0","","","","","","",""
"video-keyboard-response","95","173921","0.0-11.0-1.5","","","null","audio/instructions_alsogotogether.mp3","null","","","","teach","pal","","videos/cond1_iconic_tub1_MUTE.mp4",""
"html-button-response","96","174926","0.0-11.0-0.6","","","904.0750000276603","","","0","","","","","","",""
"video-keyboard-response","97","178532","0.0-11.0-1.6","","","null","audio/instructions_alsogotogether.mp3","null","","","","teach","pal","","videos/cond1_iconic_table1_MUTE.mp4",""
"html-button-response","98","179270","0.0-11.0-0.7","","","635.8800000161864","","","0","","","","","","",""
"video-keyboard-response","99","182873","0.0-11.0-1.7","","","null","audio/instructions_alsogotogether.mp3","null","","","","teach","pal","","videos/cond1_newamb_boots.mp4",""
"audio-keyboard-response","100","185328","0.0-12.0","","","null","audio/instructions_whichpictures.wav","null","","","","","","","",""
"html-button-response","101","186054","0.0-13.0-0.0","","","622.0349999493919","","","0","","","","","","",""
"image-button-response","102","188366","0.0-13.0-1.0","","","2208.3600000478327","pal_images/table.jpg","","0","pal_images/iconic_table.jpg,pal_images/random8.jpg","pal_images/iconic_table.jpg","test","pal","true","","1"
"html-button-response","103","189309","0.0-13.0-0.1","","","838.9450000249781","","","0","","","","","","",""
"image-button-response","104","190685","0.0-13.0-1.1","","","1271.2650000466965","pal_images/boat.jpg","","0","pal_images/iconic_boat.jpg,pal_images/random3.jpg","pal_images/iconic_boat.jpg","test","pal","true","","1"
"html-button-response","105","191562","0.0-13.0-0.2","","","773.5250000259839","","","0","","","","","","",""
"image-button-response","106","193555","0.0-13.0-1.2","","","1888.6399999610148","pal_images/bib.jpg","","1","pal_images/amb_bib.jpg,pal_images/iconic_bib.jpg","pal_images/amb_bib.jpg","test","pal","false","","1"
"html-button-response","107","194448","0.0-13.0-0.3","","","792.0350000495091","","","0","","","","","","",""
"image-button-response","108","195784","0.0-13.0-1.3","","","1233.7749999715015","pal_images/car.jpg","","0","pal_images/iconic_car.jpg,pal_images/random7.jpg","pal_images/iconic_car.jpg","test","pal","true","","1"
"html-button-response","109","196514","0.0-13.0-0.4","","","627.2849999950267","","","0","","","","","","",""
"image-button-response","110","198523","0.0-13.0-1.4","","","1905.945000005886","pal_images/button.jpg","","0","pal_images/amb_button.jpg,pal_images/iconic_button.jpg","pal_images/amb_button.jpg","test","pal","true","","1"
"html-button-response","111","199301","0.0-13.0-0.5","","","676.2450000387616","","","0","","","","","","",""
