"trial_type","trial_index","time_elapsed","internal_node_id","subject","success","rt","stimulus","key_press","button_pressed","choices","target","block","task","accuracy","video"
"pavlovia","0","4","0.0-0.0","","","","","","","","","","","",""
"fullscreen","1","28468","0.0-1.0","","true","","","","","","","","","",""
"audio-keyboard-response","2","31878","0.0-2.0","","","null","audio/instructions_practice.mp3","null","","","","","","",""
"html-button-response","3","32646","0.0-3.0","","","664.5150000113063","","","0","","","","","",""
"audio-keyboard-response","4","36018","0.0-4.0","","","null","audio/instructions_waitpicture.mp3","null","","","","","","",""
"html-button-response","5","36620","0.0-5.0-0.0","","","500.23000000510365","","","0","","","","","",""
"audio-button-response","6","38729","0.0-5.0-1.0-0.0","","","1572.470000013709","audio/duckrecording1.mp3","","0","","","","","",""
"audio-button-response","7","39946","0.0-5.0-1.0-1.0","","","1110.820000001695","audio/duckrecording2.mp3","","1","pol_images/sheep.jpg,pol_images/duck.jpg,pol_images/horse.jpg,pol_images/calf.jpg","pol_images/duck.jpg","intro","polysemy","true",""
"audio-keyboard-response","8","43051","0.0-5.0-2.0","","","null","audio/answer-correct.mp3","null","","","","","","",""
"html-button-response","9","44043","0.0-5.0-0.1","","","890.7099999778438","","","0","","","","","",""
"audio-button-response","10","46153","0.0-5.0-1.1-0.1","","","null","audio/bananarecording1.mp3","","null","","","","","",""
"audio-button-response","11","48369","0.0-5.0-1.1-1.1","","","2113.2700000016484","audio/bananarecording2.mp3","","3","pol_images/lamb.jpg,pol_images/wheel.jpg,pol_images/bib.jpg,pol_images/banana.jpg","pol_images/banana.jpg","intro","polysemy","true",""
"audio-keyboard-response","12","51472","0.0-5.0-2.1","","","null","audio/answer-correct.mp3","null","","","","","","",""
"html-button-response","13","52703","0.0-5.0-0.2","","","1125.6949999951757","","","0","","","","","",""
"audio-button-response","14","54811","0.0-5.0-1.2-0.2","","","678.4449999977369","audio/footrecording1.mp3","","3","","","","","",""
"audio-button-response","15","56006","0.0-5.0-1.2-1.2","","","1091.8649999948684","audio/footrecording2.mp3","","3","pol_images/hand.jpg,pol_images/neck.jpg,pol_images/shoulder.jpg,pol_images/foot.jpg","pol_images/foot.jpg","intro","polysemy","true",""
"audio-keyboard-response","16","59112","0.0-5.0-2.2","","","null","audio/answer-correct.mp3","null","","","","","","",""
"html-button-response","17","59831","0.0-5.0-0.3","","","613.7400000006892","","","0","","","","","",""
"audio-button-response","18","61948","0.0-5.0-1.3-0.3","","","676.8149999843445","audio/mouthrecording1.mp3","","0","","","","","",""
"audio-button-response","19","62436","0.0-5.0-1.3-1.3","","","385.21499998751096","audio/mouthrecording2.mp3","","2","pol_images/eye.jpg,pol_images/ear.jpg,pol_images/mouth.jpg,pol_images/nose.jpg","pol_images/mouth.jpg","intro","polysemy","true",""
"audio-keyboard-response","20","65543","0.0-5.0-2.3","","","null","audio/answer-correct.mp3","null","","","","","","",""
"html-button-response","21","66437","0.0-5.0-0.4","","","787.5699999858625","","","0","","","","","",""
"audio-button-response","22","68546","0.0-5.0-1.4-0.4","","","null","audio/ballrecording1.mp3","","null","","","","","",""
"audio-button-response","23","102711","0.0-5.0-1.4-1.4","","","34061.730000015814","audio/ballrecording2.mp3","","1","pol_images/parrot.jpg,pol_images/ball.jpg,pol_images/pumpkin.jpg,pol_images/rose.jpg","pol_images/ball.jpg","intro","polysemy","true",""
"audio-keyboard-response","24","105820","0.0-5.0-2.4","","","null","audio/answer-correct.mp3","null","","","","","","",""
"html-button-response","25","108334","0.0-5.0-0.5","","","2409.7799999872223","","","0","","","","","",""
"audio-button-response","26","110451","0.0-5.0-1.5-0.5","","","null","audio/busrecording1.mp3","","null","","","","","",""
"audio-button-response","27","112523","0.0-5.0-1.5-1.5","","","1969.825000007404","audio/busrecording2.mp3","","0","pol_images/bus.jpg,pol_images/kite.jpg,pol_images/elephant.jpg,pol_images/broom.jpg","pol_images/bus.jpg","intro","polysemy","true",""
"audio-keyboard-response","28","115626","0.0-5.0-2.5","","","null","audio/answer-correct.mp3","null","","","","","","",""
"html-button-response","29","117102","0.0-5.0-0.6","","","1372.2499999857973","","","0","","","","","",""
"audio-button-response","30","119213","0.0-5.0-1.6-0.6","","","null","audio/flowerrecording1.mp3","","null","","","","","",""
"audio-button-response","31","119647","0.0-5.0-1.6-1.6","","","326.87000001897104","audio/flowerrecording2.mp3","","3","pol_images/toy.jpg,pol_images/starfish.jpg,pol_images/pizza.jpg,pol_images/flower.jpg","pol_images/flower.jpg","intro","polysemy","true",""
"audio-keyboard-response","32","122756","0.0-5.0-2.6","","","null","audio/answer-correct.mp3","null","","","","","","",""
"html-button-response","33","123322","0.0-5.0-0.7","","","462.8649999795016","","","0","","","","","",""
"audio-button-response","34","125437","0.0-5.0-1.7-0.7","","","null","audio/shoerecording1.mp3","","null","","","","","",""
"audio-button-response","35","125898","0.0-5.0-1.7-1.7","","","358.36500002187677","audio/shoerecording2.mp3","","2","pol_images/teddybear.jpg,pol_images/stool.jpg,pol_images/shoe.jpg,pol_images/sandwich.jpg","pol_images/shoe.jpg","intro","polysemy","true",""
"audio-keyboard-response","36","129007","0.0-5.0-2.7","","","null","audio/answer-correct.mp3","null","","","","","","",""
"audio-keyboard-response","37","131613","0.0-6.0","","","null","audio/instructions_keepgoing.wav","null","","","","","","",""
"audio-keyboard-response","38","134898","0.0-7.0","","","null","audio/instructions_waitfull.mp3","null","","","","","","",""
"html-button-response","39","135926","0.0-8.0-0.0","","","921.730000001844","","","0","","","","","",""
"audio-button-response","40","138827","0.0-8.0-1.0","","","2770.0199999962933","audio/sheetrecording.mp3","","3","pol_images/distractor43.jpg,pol_images/distractor20.jpg,pol_images/distractor54.jpg,pol_images/sheetC.jpg","pol_images/sheetC.jpg","choose","polysemy","true",""
"html-button-response","41","139765","0.0-8.0-0.1","","","834.0949999983422","","","0","","","","","",""
"audio-button-response","42","140694","0.0-8.0-1.1","","","812.2349999903236","audio/collarrecording.mp3","","2","pol_images/distractor39.jpg,pol_images/collarA.jpg,pol_images/distractor42.jpg,pol_images/distractor53.jpg","pol_images/collarA.jpg","choose","polysemy","false",""
"html-button-response","43","141362","0.0-8.0-0.2","","","564.6699999924749","","","0","","","","","",""
"audio-button-response","44","141949","0.0-8.0-1.2","","","469.1549999988638","audio/balloonrecording.mp3","","2","pol_images/distractor13.jpg,pol_images/distractor26.jpg,pol_images/balloonA.jpg,pol_images/distractor32.jpg","pol_images/balloonA.jpg","choose","polysemy","true",""
"html-button-response","45","142454","0.0-8.0-0.3","","","401.1900000041351","","","0","","","","","",""
"audio-button-response","46","142976","0.0-8.0-1.3","","","407.4900000123307","audio/hornrecording.mp3","","2","pol_images/distractor46.jpg,pol_images/distractor31.jpg,pol_images/hornA.jpg,pol_images/distractor24.jpg","pol_images/hornA.jpg","choose","polysemy","true",""
"html-button-response","47","143497","0.0-8.0-0.4","","","416.6749999858439","","","0","","","","","",""
"audio-button-response","48","144036","0.0-8.0-1.4","","","428.21000001276843","audio/sheetrecording.mp3","","2","pol_images/distractor15.jpg,pol_images/distractor10.jpg,pol_images/distractor35.jpg,pol_images/sheetB.jpg","pol_images/sheetB.jpg","choose","polysemy","false",""
"html-button-response","49","145267","0.0-8.0-0.5","","","1129.6999999904074","","","0","","","","","",""
"audio-button-response","50","145782","0.0-8.0-1.5","","","406.98499997961335","audio/hornrecording.mp3","","2","pol_images/distractor33.jpg,pol_images/hornC.jpg,pol_images/distractor52.jpg,pol_images/distractor29.jpg","pol_images/hornC.jpg","choose","polysemy","false",""
"html-button-response","51","146294","0.0-8.0-0.6","","","409.6750000026077","","","0","","","","","",""
"audio-button-response","52","146783","0.0-8.0-1.6","","","377.0150000054855","audio/hornrecording.mp3","","2","pol_images/hornB.jpg,pol_images/distractor34.jpg,pol_images/distractor11.jpg,pol_images/distractor2.jpg","pol_images/hornB.jpg","choose","polysemy","false",""
"html-button-response","53","147264","0.0-8.0-0.7","","","376.7150000203401","","","0","","","","","",""
"audio-button-response","54","147713","0.0-8.0-1.7","","","338.66999999736436","audio/glassesrecording-whichis.mp3","","2","pol_images/distractor17.jpg,pol_images/distractor50.jpg,pol_images/glassesB.jpg,pol_images/distractor45.jpg","pol_images/glassesB.jpg","choose","polysemy","true",""
"html-button-response","55","148173","0.0-8.0-0.8","","","354.0849999990314","","","0","","","","","",""
"audio-button-response","56","148748","0.0-8.0-1.8","","","463.9749999914784","audio/glassesrecording-whichis.mp3","","2","pol_images/distractor23.jpg,pol_images/glassesC.jpg,pol_images/distractor48.jpg,pol_images/distractor16.jpg","pol_images/glassesC.jpg","choose","polysemy","false",""
"html-button-response","57","149995","0.0-8.0-0.9","","","1145.6299999845214","","","0","","","","","",""
"audio-button-response","58","150639","0.0-8.0-1.9","","","528.6450000130571","audio/caprecording.mp3","","3","pol_images/distractor27.jpg,pol_images/distractor41.jpg,pol_images/capC.jpg,pol_images/distractor12.jpg","pol_images/capC.jpg","choose","polysemy","false",""
"html-button-response","59","151143","0.0-8.0-0.10","","","402.4400000052992","","","0","","","","","",""
"audio-button-response","60","151739","0.0-8.0-1.10","","","480.5050000140909","audio/caprecording.mp3","","3","pol_images/distractor37.jpg,pol_images/distractor3.jpg,pol_images/capB.jpg,pol_images/distractor36.jpg","pol_images/capB.jpg","choose","polysemy","false",""
"html-button-response","61","152602","0.0-8.0-0.11","","","761.4949999842793","","","0","","","","","",""
"audio-button-response","62","153198","0.0-8.0-1.11","","","486.3749999785796","audio/glassesrecording-whichis.mp3","","3","pol_images/glassesA.jpg,pol_images/distractor19.jpg,pol_images/distractor21.jpg,pol_images/distractor18.jpg","pol_images/glassesA.jpg","choose","polysemy","false",""
"html-button-response","63","153671","0.0-8.0-0.12","","","372.12499999441206","","","0","","","","","",""
"audio-button-response","64","154267","0.0-8.0-1.12","","","482.30500001227483","audio/collarrecording.mp3","","3","pol_images/collarC.jpg,pol_images/distractor9.jpg,pol_images/distractor22.jpg,pol_images/distractor44.jpg","pol_images/collarC.jpg","choose","polysemy","false",""
"html-button-response","65","154763","0.0-8.0-0.13","","","395.4549999907613","","","0","","","","","",""
"audio-button-response","66","155334","0.0-8.0-1.13","","","461.1399999994319","audio/caprecording.mp3","","3","pol_images/distractor7.jpg,pol_images/distractor28.jpg,pol_images/capA.jpg,pol_images/distractor38.jpg","pol_images/capA.jpg","choose","polysemy","false",""
"html-button-response","67","155823","0.0-8.0-0.14","","","385.00499998917803","","","0","","","","","",""
"audio-button-response","68","156459","0.0-8.0-1.14","","","529.2300000146497","audio/collarrecording.mp3","","3","pol_images/distractor8.jpg,pol_images/distractor4.jpg,pol_images/distractor47.jpg,pol_images/collarB.jpg","pol_images/collarB.jpg","choose","polysemy","true",""
"html-button-response","69","156964","0.0-8.0-0.15","","","400.25500001502223","","","0","","","","","",""
"audio-button-response","70","157551","0.0-8.0-1.15","","","477.2649999940768","audio/balloonrecording.mp3","","3","pol_images/balloonB.jpg,pol_images/distractor6.jpg,pol_images/distractor14.jpg,pol_images/distractor5.jpg","pol_images/balloonB.jpg","choose","polysemy","false",""
"html-button-response","71","158008","0.0-8.0-0.16","","","353.42500000842847","","","0","","","","","",""
"audio-button-response","72","158579","0.0-8.0-1.16","","","457.4000000138767","audio/balloonrecording.mp3","","3","pol_images/distractor1.jpg,pol_images/distractor40.jpg,pol_images/balloonC.jpg,pol_images/distractor25.jpg","pol_images/balloonC.jpg","choose","polysemy","false",""
"html-button-response","73","159043","0.0-8.0-0.17","","","362.6900000090245","","","0","","","","","",""
"audio-button-response","74","160363","0.0-8.0-1.17","","","1215.3150000085589","audio/sheetrecording.mp3","","3","pol_images/sheetA.jpg,pol_images/distractor30.jpg,pol_images/distractor49.jpg,pol_images/distractor51.jpg","pol_images/sheetA.jpg","choose","polysemy","false",""
"audio-keyboard-response","75","161804","0.0-9.0","","","null","audio/instructions_keepgoing.wav","null","","","","","","",""
"html-button-response","76","162507","0.0-10.0-0.0","","","596.9700000132434","","","0","","","","","",""
"audio-button-response","77","167614","0.0-10.0-1.0","","","null","audio/instructions_wowthesearecool.mp3","","null","pal_images/random1.jpg,pal_images/iconic_table.jpg,pal_images/random11.jpg,pal_images/random12.jpg","","preview","pal","",""
"html-button-response","78","168901","0.0-10.0-0.1","","","1183.454999991227","","","0","","","","","",""
"audio-button-response","79","174019","0.0-10.0-1.1","","","null","audio/instructions_checktheseout.mp3","","null","pal_images/iconic_tub.jpg,pal_images/iconic_pizza.jpg,pal_images/iconic_button.jpg,pal_images/iconic_flag.jpg","","preview","pal","",""
"html-button-response","80","174538","0.0-10.0-0.2","","","416.10500001115724","","","0","","","","","",""
"audio-button-response","81","179647","0.0-10.0-1.2","","","null","audio/instructions_wowthesearecool.mp3","","null","pal_images/iconic_chair.jpg,pal_images/amb_pizza.jpg,pal_images/random7.jpg,pal_images/random16.jpg","","preview","pal","",""
"html-button-response","82","180191","0.0-10.0-0.3","","","437.4499999976251","","","0","","","","","",""
"audio-button-response","83","185300","0.0-10.0-1.3","","","null","audio/instructions_lookatthese.mp3","","null","pal_images/iconic_boat.jpg,pal_images/amb_button.jpg,pal_images/amb_flag.jpg,pal_images/iconic_sandbox.jpg","","preview","pal","",""
"html-button-response","84","185866","0.0-11.0-0.0","","","464.155000023311","","","0","","","","","",""
"video-keyboard-response","85","189504","0.0-11.0-1.0","","","null","audio/instructions_alsogotogether.mp3","null","","","","teach","pal","","videos/cond1_newamb_pizza.mp4"
"html-button-response","86","190087","0.0-11.0-0.1","","","481.37499997392297","","","0","","","","","",""
"video-keyboard-response","87","193694","0.0-11.0-1.1","","","null","audio/instructions_alsogotogether.mp3","null","","","","teach","pal","","videos/cond1_iconic_boat1_MUTE.mp4"
"html-button-response","88","195562","0.0-11.0-0.2","","","1765.7900000049267","","","0","","","","","",""
"video-keyboard-response","89","199172","0.0-11.0-1.2","","","null","audio/instructions_alsogotogether.mp3","null","","","","teach","pal","","videos/cond1_newamb_button.mp4"
"html-button-response","90","200177","0.0-11.0-0.3","","","901.7400000011548","","","0","","","","","",""
"video-keyboard-response","91","203781","0.0-11.0-1.3","","","null","audio/instructions_alsogotogether.mp3","null","","","","teach","pal","","videos/cond1_iconic_sandbox1_MUTE.mp4"
