"trial_type","trial_index","time_elapsed","internal_node_id","subject","success","rt","stimulus","key_press","button_pressed","choices","target","block","task","accuracy","video","condition","responses"
"pavlovia","0","5","0.0-0.0","","","","","","","","","","","","","",""
"fullscreen","1","2506","0.0-1.0","","true","","","","","","","","","","","",""
"audio-keyboard-response","2","5896","0.0-2.0","","","null","audio/instructions_practice.mp3","null","","","","","","","","",""
"html-button-response","3","7819","0.0-3.0","","","1816.5349999999307","","","0","","","","","","","",""
"audio-keyboard-response","4","11192","0.0-4.0","","","null","audio/instructions_waitpicture.mp3","null","","","","","","","","",""
"html-button-response","5","12654","0.0-5.0-0.0","","","1359.179999999924","","","0","","","","","","","",""
"audio-button-response","6","14764","0.0-5.0-1.0-0.0","","","927.2350000001097","audio/bananarecording1.mp3","","3","","","","","","","",""
"audio-button-response","7","15205","0.0-5.0-1.0-1.0","","","335.0450000002638","audio/bananarecording2.mp3","","3","pol_images/banana.jpg,pol_images/lamb.jpg,pol_images/bib.jpg,pol_images/wheel.jpg","pol_images/banana.jpg","intro","polysemy","false","","",""
"audio-keyboard-response","8","18308","0.0-5.0-2.0","","","null","audio/answer-error.mp3","null","","","","","","","","",""
"html-button-response","9","18763","0.0-5.0-0.1","","","352.5049999998373","","","0","","","","","","","",""
"audio-button-response","10","20866","0.0-5.0-1.1-0.1","","","null","audio/ballrecording1.mp3","","null","","","","","","","",""
"audio-button-response","11","21335","0.0-5.0-1.1-1.1","","","365.9499999998843","audio/ballrecording2.mp3","","2","pol_images/pumpkin.jpg,pol_images/rose.jpg,pol_images/ball.jpg,pol_images/parrot.jpg","pol_images/ball.jpg","intro","polysemy","true","","",""
"audio-keyboard-response","12","24438","0.0-5.0-2.1","","","null","audio/answer-correct.mp3","null","","","","","","","","",""
"html-button-response","13","24873","0.0-5.0-0.2","","","333.1399999997302","","","0","","","","","","","",""
"audio-button-response","14","26983","0.0-5.0-1.2-0.2","","","587.2099999996863","audio/shoerecording1.mp3","","3","","","","","","","",""
"audio-button-response","15","28254","0.0-5.0-1.2-1.2","","","1167.435000000296","audio/shoerecording2.mp3","","0","pol_images/shoe.jpg,pol_images/teddybear.jpg,pol_images/stool.jpg,pol_images/sandwich.jpg","pol_images/shoe.jpg","intro","polysemy","true","","",""
"audio-keyboard-response","16","31356","0.0-5.0-2.2","","","null","audio/answer-correct.mp3","null","","","","","","","","",""
"html-button-response","17","31945","0.0-5.0-0.3","","","486.81000000033237","","","0","","","","","","","",""
"audio-button-response","18","34051","0.0-5.0-1.3-0.3","","","null","audio/footrecording1.mp3","","null","","","","","","","",""
"audio-button-response","19","36751","0.0-5.0-1.3-1.3","","","2597.464999999822","audio/footrecording2.mp3","","2","pol_images/shoulder.jpg,pol_images/hand.jpg,pol_images/foot.jpg,pol_images/neck.jpg","pol_images/foot.jpg","intro","polysemy","true","","",""
"audio-keyboard-response","20","39853","0.0-5.0-2.3","","","null","audio/answer-correct.mp3","null","","","","","","","","",""
"html-button-response","21","40260","0.0-5.0-0.4","","","303.8799999999392","","","0","","","","","","","",""
"audio-button-response","22","42366","0.0-5.0-1.4-0.4","","","null","audio/busrecording1.mp3","","null","","","","","","","",""
"audio-button-response","23","43123","0.0-5.0-1.4-1.4","","","654.5449999998746","audio/busrecording2.mp3","","3","pol_images/kite.jpg,pol_images/elephant.jpg,pol_images/broom.jpg,pol_images/bus.jpg","pol_images/bus.jpg","intro","polysemy","true","","",""
"audio-keyboard-response","24","46227","0.0-5.0-2.4","","","null","audio/answer-correct.mp3","null","","","","","","","","",""
"html-button-response","25","46680","0.0-5.0-0.5","","","350.81999999965774","","","0","","","","","","","",""
"audio-button-response","26","48783","0.0-5.0-1.5-0.5","","","null","audio/flowerrecording1.mp3","","null","","","","","","","",""
"audio-button-response","27","49451","0.0-5.0-1.5-1.5","","","560.9399999998423","audio/flowerrecording2.mp3","","2","pol_images/pizza.jpg,pol_images/starfish.jpg,pol_images/flower.jpg,pol_images/toy.jpg","pol_images/flower.jpg","intro","polysemy","true","","",""
"audio-keyboard-response","28","52558","0.0-5.0-2.5","","","null","audio/answer-correct.mp3","null","","","","","","","","",""
"html-button-response","29","53064","0.0-5.0-0.6","","","400.9750000000131","","","0","","","","","","","",""
"audio-button-response","30","55169","0.0-5.0-1.6-0.6","","","null","audio/mouthrecording1.mp3","","null","","","","","","","",""
"audio-button-response","31","55609","0.0-5.0-1.6-1.6","","","334.82999999978347","audio/mouthrecording2.mp3","","3","pol_images/eye.jpg,pol_images/nose.jpg,pol_images/ear.jpg,pol_images/mouth.jpg","pol_images/mouth.jpg","intro","polysemy","true","","",""
"audio-keyboard-response","32","58713","0.0-5.0-2.6","","","null","audio/answer-correct.mp3","null","","","","","","","","",""
"html-button-response","33","59158","0.0-5.0-0.7","","","343.71000000010827","","","0","","","","","","","",""
"audio-button-response","34","61263","0.0-5.0-1.7-0.7","","","null","audio/duckrecording1.mp3","","null","","","","","","","",""
"audio-button-response","35","61646","0.0-5.0-1.7-1.7","","","280.51999999980035","audio/duckrecording2.mp3","","2","pol_images/calf.jpg,pol_images/horse.jpg,pol_images/duck.jpg,pol_images/sheep.jpg","pol_images/duck.jpg","intro","polysemy","true","","",""
"audio-keyboard-response","36","64749","0.0-5.0-2.7","","","null","audio/answer-correct.mp3","null","","","","","","","","",""
"audio-keyboard-response","37","67350","0.0-6.0","","","null","audio/instructions_keepgoing.wav","null","","","","","","","","",""
"audio-keyboard-response","38","70639","0.0-7.0","","","null","audio/instructions_waitfull.mp3","null","","","","","","","","",""
"html-button-response","39","71345","0.0-8.0-0.0","","","604.0399999997171","","","0","","","","","","","",""
"audio-button-response","40","73072","0.0-8.0-1.0","","","1620.7950000002747","audio/caprecording.mp3","","2","pol_images/distractor20.jpg,pol_images/distractor47.jpg,pol_images/capA.jpg,pol_images/distractor21.jpg","pol_images/capA.jpg","choose","polysemy","true","","",""
"html-button-response","41","73766","0.0-8.0-0.1","","","587.5500000001921","","","0","","","","","","","",""
"audio-button-response","42","74758","0.0-8.0-1.1","","","883.3850000000821","audio/glassesrecording-whichis.mp3","","3","pol_images/distractor16.jpg,pol_images/glassesA.jpg,pol_images/distractor3.jpg,pol_images/distractor42.jpg","pol_images/glassesA.jpg","choose","polysemy","false","","",""
"html-button-response","43","75418","0.0-8.0-0.2","","","554.105000000156","","","0","","","","","","","",""
"audio-button-response","44","75975","0.0-8.0-1.2","","","454.78500000035274","audio/sheetrecording.mp3","","1","pol_images/distractor49.jpg,pol_images/sheetC.jpg,pol_images/distractor27.jpg,pol_images/distractor36.jpg","pol_images/sheetC.jpg","choose","polysemy","true","","",""
"html-button-response","45","76387","0.0-8.0-0.3","","","309.3300000000454","","","0","","","","","","","",""
"audio-button-response","46","78535","0.0-8.0-1.3","","","2046.1599999998725","audio/hornrecording.mp3","","1","pol_images/distractor50.jpg,pol_images/hornC.jpg,pol_images/distractor11.jpg,pol_images/distractor35.jpg","pol_images/hornC.jpg","choose","polysemy","true","","",""
"html-button-response","47","78971","0.0-8.0-0.4","","","333.3700000002864","","","0","","","","","","","",""
"audio-button-response","48","80962","0.0-8.0-1.4","","","1884.425000000192","audio/collarrecording.mp3","","0","pol_images/collarB.jpg,pol_images/distractor41.jpg,pol_images/distractor13.jpg,pol_images/distractor4.jpg","pol_images/collarB.jpg","choose","polysemy","true","","",""
"html-button-response","49","81293","0.0-8.0-0.5","","","229.46000000002095","","","0","","","","","","","",""
"audio-button-response","50","82133","0.0-8.0-1.5","","","734.689999999784","audio/caprecording.mp3","","1","pol_images/distractor32.jpg,pol_images/capB.jpg,pol_images/distractor17.jpg,pol_images/distractor6.jpg","pol_images/capB.jpg","choose","polysemy","true","","",""
"html-button-response","51","82513","0.0-8.0-0.6","","","278.52500000018335","","","0","","","","","","","",""
"audio-button-response","52","83070","0.0-8.0-1.6","","","451.34000000006927","audio/hornrecording.mp3","","0","pol_images/hornA.jpg,pol_images/distractor23.jpg,pol_images/distractor44.jpg,pol_images/distractor37.jpg","pol_images/hornA.jpg","choose","polysemy","true","","",""
"html-button-response","53","83401","0.0-8.0-0.7","","","227.9149999999354","","","0","","","","","","","",""
"audio-button-response","54","83902","0.0-8.0-1.7","","","395.0150000000576","audio/hornrecording.mp3","","1","pol_images/distractor14.jpg,pol_images/distractor24.jpg,pol_images/hornB.jpg,pol_images/distractor48.jpg","pol_images/hornB.jpg","choose","polysemy","false","","",""
"html-button-response","55","84774","0.0-8.0-0.8","","","770.1750000001048","","","0","","","","","","","",""
"audio-button-response","56","85247","0.0-8.0-1.8","","","370.9050000002171","audio/balloonrecording.mp3","","2","pol_images/distractor28.jpg,pol_images/balloonC.jpg,pol_images/distractor40.jpg,pol_images/distractor29.jpg","pol_images/balloonC.jpg","choose","polysemy","false","","",""
"html-button-response","57","86049","0.0-8.0-0.9","","","697.284999999727","","","0","","","","","","","",""
"audio-button-response","58","86515","0.0-8.0-1.9","","","360.3250000001135","audio/balloonrecording.mp3","","0","pol_images/distractor30.jpg,pol_images/distractor25.jpg,pol_images/distractor54.jpg,pol_images/balloonB.jpg","pol_images/balloonB.jpg","choose","polysemy","false","","",""
"html-button-response","59","86870","0.0-8.0-0.10","","","254.11000000030617","","","0","","","","","","","",""
"audio-button-response","60","87492","0.0-8.0-1.10","","","515.7549999999028","audio/collarrecording.mp3","","3","pol_images/distractor39.jpg,pol_images/collarA.jpg,pol_images/distractor12.jpg,pol_images/distractor43.jpg","pol_images/collarA.jpg","choose","polysemy","false","","",""
"html-button-response","61","88283","0.0-8.0-0.11","","","688.574999999677","","","0","","","","","","","",""
"audio-button-response","62","88736","0.0-8.0-1.11","","","350.0800000001618","audio/balloonrecording.mp3","","1","pol_images/distractor2.jpg,pol_images/distractor1.jpg,pol_images/distractor19.jpg,pol_images/balloonA.jpg","pol_images/balloonA.jpg","choose","polysemy","false","","",""
"html-button-response","63","89051","0.0-8.0-0.12","","","213.58499999996275","","","0","","","","","","","",""
"audio-button-response","64","89875","0.0-8.0-1.12","","","721.8250000000844","audio/glassesrecording-whichis.mp3","","0","pol_images/distractor34.jpg,pol_images/distractor26.jpg,pol_images/distractor8.jpg,pol_images/glassesC.jpg","pol_images/glassesC.jpg","choose","polysemy","false","","",""
"html-button-response","65","90238","0.0-8.0-0.13","","","260.5300000000134","","","0","","","","","","","",""
"audio-button-response","66","90722","0.0-8.0-1.13","","","380.50999999996566","audio/caprecording.mp3","","1","pol_images/capC.jpg,pol_images/distractor38.jpg,pol_images/distractor53.jpg,pol_images/distractor5.jpg","pol_images/capC.jpg","choose","polysemy","false","","",""
"html-button-response","67","91070","0.0-8.0-0.14","","","244.93499999970663","","","0","","","","","","","",""
"audio-button-response","68","91547","0.0-8.0-1.14","","","372.2299999999377","audio/glassesrecording-whichis.mp3","","0","pol_images/distractor45.jpg,pol_images/distractor9.jpg,pol_images/distractor15.jpg,pol_images/glassesB.jpg","pol_images/glassesB.jpg","choose","polysemy","false","","",""
"html-button-response","69","91885","0.0-8.0-0.15","","","231.48499999979686","","","0","","","","","","","",""
"audio-button-response","70","92382","0.0-8.0-1.15","","","395.44999999998254","audio/sheetrecording.mp3","","0","pol_images/distractor22.jpg,pol_images/sheetA.jpg,pol_images/distractor52.jpg,pol_images/distractor31.jpg","pol_images/sheetA.jpg","choose","polysemy","false","","",""
"html-button-response","71","92729","0.0-8.0-0.16","","","244.1800000001531","","","0","","","","","","","",""
"audio-button-response","72","93198","0.0-8.0-1.16","","","364.30499999961467","audio/collarrecording.mp3","","0","pol_images/collarC.jpg,pol_images/distractor10.jpg,pol_images/distractor46.jpg,pol_images/distractor51.jpg","pol_images/collarC.jpg","choose","polysemy","true","","",""
"html-button-response","73","93553","0.0-8.0-0.17","","","252.5450000002893","","","0","","","","","","","",""
"audio-button-response","74","93997","0.0-8.0-1.17","","","339.910000000149","audio/sheetrecording.mp3","","0","pol_images/distractor18.jpg,pol_images/distractor7.jpg,pol_images/sheetB.jpg,pol_images/distractor33.jpg","pol_images/sheetB.jpg","choose","polysemy","false","","",""
"audio-keyboard-response","75","95434","0.0-9.0","","","null","audio/instructions_keepgoing.wav","null","","","","","","","","",""
"html-button-response","76","96057","0.0-10.0-0.0","","","520.7949999999109","","","0","","","","","","","",""
"audio-button-response","77","101162","0.0-10.0-1.0","","","null","audio/instructions_wowthesearecool.mp3","","null","pal_images/iconic_tub.jpg,pal_images/iconic_butterfly.jpg,pal_images/random14.jpg,pal_images/iconic_chair.jpg","","preview","pal","","","",""
"html-button-response","78","102151","0.0-10.0-0.1","","","886.8949999996403","","","0","","","","","","","",""
"audio-button-response","79","107261","0.0-10.0-1.1","","","1295.37500000016","audio/instructions_lookatthese.mp3","","2","pal_images/iconic_bib.jpg,pal_images/iconic_eye.jpg,pal_images/random12.jpg,pal_images/random11.jpg","","preview","pal","","","",""
"html-button-response","80","108224","0.0-10.0-0.2","","","858.2049999999872","","","0","","","","","","","",""
"audio-button-response","81","113328","0.0-10.0-1.2","","","null","audio/instructions_checktheseout.mp3","","null","pal_images/amb_button.jpg,pal_images/amb_butterfly.jpg,pal_images/amb_bib.jpg,pal_images/iconic_boots.jpg","","preview","pal","","","",""
"html-button-response","82","116095","0.0-10.0-0.3","","","2664.680000000313","","","0","","","","","","","",""
"audio-button-response","83","121201","0.0-10.0-1.3","","","null","audio/instructions_checktheseout.mp3","","null","pal_images/amb_boots.jpg,pal_images/iconic_fox.jpg,pal_images/amb_eye.jpg,pal_images/iconic_button.jpg","","preview","pal","","","",""
"html-button-response","84","122281","0.0-11.0-0.0","","","978.8800000001211","","","0","","","","","","","",""
"video-keyboard-response","85","125898","0.0-11.0-1.0","","","null","audio/instructions_gotogether.mp3","null","","","","teach","pal","","videos/cond1_newamb_eye.mp4","",""
"html-button-response","86","126858","0.0-11.0-0.1","","","856.6049999999523","","","0","","","","","","","",""
"video-keyboard-response","87","130465","0.0-11.0-1.1","","","null","audio/instructions_gotogether.mp3","null","","","","teach","pal","","videos/cond1_iconic_chair1_MUTE.mp4","",""
"html-button-response","88","130989","0.0-11.0-0.2","","","422.9000000000233","","","0","","","","","","","",""
"video-keyboard-response","89","134598","0.0-11.0-1.2","","","null","audio/instructions_gotogether.mp3","null","","","","teach","pal","","videos/cond1_iconic_tub1_MUTE.mp4","",""
"html-button-response","90","135011","0.0-11.0-0.3","","","311.035000000149","","","0","","","","","","","",""
"video-keyboard-response","91","138614","0.0-11.0-1.3","","","null","audio/instructions_gotogether.mp3","null","","","","teach","pal","","videos/cond1_newamb_button.mp4","",""
"html-button-response","92","139105","0.0-11.0-0.4","","","386.97500000035507","","","0","","","","","","","",""
"video-keyboard-response","93","142712","0.0-11.0-1.4","","","null","audio/instructions_alsogotogether.mp3","null","","","","teach","pal","","videos/cond1_newamb_butterfly.mp4","",""
"html-button-response","94","143188","0.0-11.0-0.5","","","374.8599999998987","","","0","","","","","","","",""
"video-keyboard-response","95","146796","0.0-11.0-1.5","","","null","audio/instructions_alsogotogether.mp3","null","","","","teach","pal","","videos/cond1_iconic_fox1_MUTE.mp4","",""
"html-button-response","96","147332","0.0-11.0-0.6","","","434.39500000025146","","","0","","","","","","","",""
"video-keyboard-response","97","150940","0.0-11.0-1.6","","","2240.064999999944","audio/instructions_alsogotogether.mp3","91","","","","teach","pal","","videos/cond1_newamb_boots.mp4","",""
"html-button-response","98","152077","0.0-11.0-0.7","","","1030.1049999998359","","","0","","","","","","","",""
"video-keyboard-response","99","155686","0.0-11.0-1.7","","","1355.4949999997916","audio/instructions_alsogotogether.mp3","91","","","","teach","pal","","videos/cond1_newamb_bib.mp4","",""
"audio-keyboard-response","100","158145","0.0-12.0","","","null","audio/instructions_whichpictures.wav","null","","","","","","","","",""
"html-button-response","101","159485","0.0-13.0-0.0","","","1237.8850000000093","","","0","","","","","","","",""
"image-button-response","102","165812","0.0-13.0-1.0","","","6222.96000000005","pal_images/eye.jpg","","1","pal_images/iconic_eye.jpg,pal_images/amb_eye.jpg","pal_images/amb_eye.jpg","test","pal","true","","1",""
"html-button-response","103","166592","0.0-13.0-0.1","","","677.8549999999232","","","0","","","","","","","",""
"image-button-response","104","168175","0.0-13.0-1.1","","","1478.8949999997276","pal_images/button.jpg","","0","pal_images/amb_button.jpg,pal_images/iconic_button.jpg","pal_images/amb_button.jpg","test","pal","true","","1",""
"html-button-response","105","168638","0.0-13.0-0.2","","","358.3499999999767","","","0","","","","","","","",""
"image-button-response","106","171179","0.0-13.0-1.2","","","2435.4200000002456","pal_images/butterfly.jpg","","0","pal_images/amb_butterfly.jpg,pal_images/iconic_butterfly.jpg","pal_images/amb_butterfly.jpg","test","pal","true","","1",""
"html-button-response","107","171626","0.0-13.0-0.3","","","343.6799999999639","","","0","","","","","","","",""
"image-button-response","108","172902","0.0-13.0-1.3","","","1171.3100000001723","pal_images/tub.jpg","","1","pal_images/random14.jpg,pal_images/iconic_tub.jpg","pal_images/iconic_tub.jpg","test","pal","true","","1",""
"html-button-response","109","173359","0.0-13.0-0.4","","","354.4499999998079","","","0","","","","","","","",""
"image-button-response","110","175132","0.0-13.0-1.4","","","1667.5150000001013","pal_images/fox.jpg","","0","pal_images/iconic_fox.jpg,pal_images/random12.jpg","pal_images/iconic_fox.jpg","test","pal","true","","1",""
"html-button-response","111","175492","0.0-13.0-0.5","","","259.28499999962514","","","0","","","","","","","",""
"image-button-response","112","177801","0.0-13.0-1.5","","","2203.4349999999104","pal_images/chair.jpg","","1","pal_images/random11.jpg,pal_images/iconic_chair.jpg","pal_images/iconic_chair.jpg","test","pal","true","","1",""
"html-button-response","113","178685","0.0-13.0-0.6","","","777.2900000000081","","","0","","","","","","","",""
"image-button-response","114","187670","0.0-13.0-1.6","","","8882.894999999728","pal_images/bib.jpg","","0","pal_images/iconic_bib.jpg,pal_images/amb_bib.jpg","pal_images/amb_bib.jpg","test","pal","false","","1",""
"html-button-response","115","188204","0.0-13.0-0.7","","","429.9000000000815","","","0","","","","","","","",""
"image-button-response","116","189746","0.0-13.0-1.7","","","1439.2000000002736","pal_images/boots.jpg","","1","pal_images/amb_boots.jpg,pal_images/iconic_boots.jpg","pal_images/amb_boots.jpg","test","pal","false","","1",""
"audio-keyboard-response","117","195008","0.0-14.0","","","null","audio/instructions_newgame.mp3","null","","","","","","","","",""
"html-button-response","118","196082","0.0-15.0-0.0","","","971.8899999998102","","","0","","","","","","","",""
"audio-button-response","119","201189","0.0-15.0-1.0","","","null","audio/instructions_checktheseout.mp3","","null","pal_images/random10.jpg,pal_images/random3.jpg,pal_images/iconic_pizza.jpg,pal_images/iconic_car.jpg","","preview","pal","","","",""
"html-button-response","120","201965","0.0-15.0-0.1","","","673.7099999995553","","","0","","","","","","","",""
"audio-button-response","121","207072","0.0-15.0-1.1","","","null","audio/instructions_wowthesearecool.mp3","","null","pal_images/iconic_boat.jpg,pal_images/iconic_table.jpg,pal_images/iconic_lightning.jpg,pal_images/amb_pizza.jpg","","preview","pal","","","",""
"html-button-response","122","208418","0.0-15.0-0.2","","","1244.9200000001001","","","0","","","","","","","",""
"audio-button-response","123","213526","0.0-15.0-1.2","","","null","audio/instructions_checktheseout.mp3","","null","pal_images/random16.jpg,pal_images/random9.jpg,pal_images/iconic_sandbox.jpg,pal_images/amb_flag.jpg","","preview","pal","","","",""
"html-button-response","124","214278","0.0-15.0-0.3","","","650.1049999997194","","","0","","","","","","","",""
"audio-button-response","125","219382","0.0-15.0-1.3","","","null","audio/instructions_lookatthese.mp3","","null","pal_images/random6.jpg,pal_images/iconic_flag.jpg,pal_images/iconic_snake.jpg,pal_images/amb_lightning.jpg","","preview","pal","","","",""
"html-button-response","126","219830","0.0-16.0-0.0","","","345.95500000024913","","","0","","","","","","","",""
"video-keyboard-response","127","223434","0.0-16.0-1.0","","","null","audio/instructions_gotogethertoo.mp3","null","","","","teach","pal","","videos/cond1_iconic_car1_MUTE.mp4","",""
"html-button-response","128","224049","0.0-16.0-0.1","","","513.8899999996938","","","0","","","","","","","",""
"video-keyboard-response","129","227654","0.0-16.0-1.1","","","null","audio/instructions_gotogethertoo.mp3","null","","","","teach","pal","","videos/cond1_newamb_lightning.mp4","",""
"html-button-response","130","228174","0.0-16.0-0.2","","","418.32500000009895","","","0","","","","","","","",""
"video-keyboard-response","131","231781","0.0-16.0-1.2","","","null","audio/instructions_gotogethertoo.mp3","null","","","","teach","pal","","videos/cond1_newamb_flag.mp4","",""
"html-button-response","132","232373","0.0-16.0-0.3","","","490.5899999998801","","","0","","","","","","","",""
"video-keyboard-response","133","235978","0.0-16.0-1.3","","","null","audio/instructions_gotogethertoo.mp3","null","","","","teach","pal","","videos/cond1_newamb_pizza.mp4","",""
"html-button-response","134","236544","0.0-16.0-0.4","","","464.29499999975087","","","0","","","","","","","",""
"video-keyboard-response","135","240151","0.0-16.0-1.4","","","160.8149999997404","audio/instructions_justafewmore.mp3","13","","","","teach","pal","","videos/cond1_iconic_snake1_MUTE.mp4","",""
"html-button-response","136","240861","0.0-16.0-0.5","","","607.8549999997485","","","0","","","","","","","",""
"video-keyboard-response","137","244465","0.0-16.0-1.5","","","null","audio/instructions_justafewmore.mp3","null","","","","teach","pal","","videos/cond1_iconic_boat1_MUTE.mp4","",""
"html-button-response","138","245043","0.0-16.0-0.6","","","476.5250000000233","","","0","","","","","","","",""
"video-keyboard-response","139","248652","0.0-16.0-1.6","","","null","audio/instructions_justafewmore.mp3","null","","","","teach","pal","","videos/cond1_iconic_sandbox1_MUTE.mp4","",""
"html-button-response","140","249781","0.0-16.0-0.7","","","1026.8249999999243","","","0","","","","","","","",""
"video-keyboard-response","141","253388","0.0-16.0-1.7","","","null","audio/instructions_justafewmore.mp3","null","","","","teach","pal","","videos/cond1_iconic_table1_MUTE.mp4","",""
"audio-keyboard-response","142","255847","0.0-17.0","","","null","audio/instructions_whichpictures.wav","null","","","","","","","","",""
"html-button-response","143","256577","0.0-18.0-0.0","","","627.7500000001164","","","0","","","","","","","",""
"image-button-response","144","261583","0.0-18.0-1.0","","","4902.399999999965","pal_images/boat.jpg","","1","pal_images/random10.jpg,pal_images/iconic_boat.jpg","pal_images/iconic_boat.jpg","test","pal","true","","1",""
"html-button-response","145","262157","0.0-18.0-0.1","","","469.3649999999325","","","0","","","","","","","",""
"image-button-response","146","267016","0.0-18.0-1.1","","","4756.395000000368","pal_images/snake.jpg","","0","pal_images/iconic_snake.jpg,pal_images/random3.jpg","pal_images/iconic_snake.jpg","test","pal","true","","1",""
"html-button-response","147","267694","0.0-18.0-0.2","","","576.2949999998091","","","0","","","","","","","",""
"image-button-response","148","271440","0.0-18.0-1.2","","","3640.609999999928","pal_images/table.jpg","","1","pal_images/random9.jpg,pal_images/iconic_table.jpg","pal_images/iconic_table.jpg","test","pal","true","","1",""
"html-button-response","149","272046","0.0-18.0-0.3","","","502.2650000000722","","","0","","","","","","","",""
"image-button-response","150","275388","0.0-18.0-1.3","","","3239.6250000001164","pal_images/lightning.jpg","","1","pal_images/iconic_lightning.jpg,pal_images/amb_lightning.jpg","pal_images/amb_lightning.jpg","test","pal","true","","1",""
"html-button-response","151","276020","0.0-18.0-0.4","","","526.8899999996647","","","0","","","","","","","",""
"image-button-response","152","279287","0.0-18.0-1.4","","","3159.9400000000023","pal_images/flag.jpg","","1","pal_images/iconic_flag.jpg,pal_images/amb_flag.jpg","pal_images/amb_flag.jpg","test","pal","true","","1",""
"html-button-response","153","279941","0.0-18.0-0.5","","","549.5050000000047","","","0","","","","","","","",""
"image-button-response","154","281422","0.0-18.0-1.5","","","1379.320000000007","pal_images/pizza.jpg","","0","pal_images/amb_pizza.jpg,pal_images/iconic_pizza.jpg","pal_images/amb_pizza.jpg","test","pal","true","","1",""
"html-button-response","155","281992","0.0-18.0-0.6","","","466.4299999999348","","","0","","","","","","","",""
"image-button-response","156","286048","0.0-18.0-1.6","","","3953.25","pal_images/sandbox.jpg","","1","pal_images/random16.jpg,pal_images/iconic_sandbox.jpg","pal_images/iconic_sandbox.jpg","test","pal","true","","1",""
"html-button-response","157","286728","0.0-18.0-0.7","","","574.5700000002398","","","0","","","","","","","",""
"image-button-response","158","292069","0.0-18.0-1.7","","","5237.374999999709","pal_images/car.jpg","","0","pal_images/iconic_car.jpg,pal_images/random6.jpg","pal_images/iconic_car.jpg","test","pal","true","","1",""
"survey-text","159","303963","0.0-19.0","","","11773.489999999583","","","","","","","","","","","{""feedback"":""test - lo nice!! looking spectacular""}"
"audio-keyboard-response","160","306525","0.0-20.0","","","null","audio/done.mp3","null","","","","","","","","",""
